[{"success":true,"timeout":false,"failed_images":[],"failed_audio":[],"failed_video":[],"trial_type":"preload","trial_index":0,"time_elapsed":4457,"internal_node_id":"0.0-0.0"},{"rt":10378.845000001093,"response":{"user_id":"TS"},"trial_type":"survey-text","trial_index":1,"time_elapsed":14839,"internal_node_id":"0.0-1.0"},{"view_history":[{"page_index":0,"viewing_time":4849.005000000034},{"page_index":1,"viewing_time":6746.390000000247},{"page_index":2,"viewing_time":8197.290000000066},{"page_index":3,"viewing_time":18465.21500000017},{"page_index":4,"viewing_time":2387.524999998277},{"page_index":5,"viewing_time":13445.370000001276},{"page_index":6,"viewing_time":1411.099999999351}],"rt":55502.90499999937,"trial_type":"instructions","trial_index":2,"time_elapsed":70344,"internal_node_id":"0.0-2.0"},{"rt":24421.76499999914,"stimulus":["videos/scene_000.mp4"],"response":1,"scene_dir":"scene_000","answer":0,"gt_params":[2.95,0.48],"distractor_params":[2.16,3.19],"distance":7.9682,"trial_type":"video-button-response","trial_index":3,"time_elapsed":94770,"internal_node_id":"0.0-3.0","correct":false},{"rt":24743.19000000105,"stimulus":["videos/scene_001.mp4"],"response":0,"scene_dir":"scene_001","answer":1,"gt_params":[3.47,3.01],"distractor_params":[2.79,3],"distance":0.4625000000000002,"trial_type":"video-button-response","trial_index":4,"time_elapsed":119516,"internal_node_id":"0.0-4.0","correct":false},{"rt":4875.135000000228,"stimulus":["videos/scene_002.mp4"],"response":0,"scene_dir":"scene_002","answer":0,"gt_params":[1.32,0.05],"distractor_params":[3.3,3.48],"distance":15.6853,"trial_type":"video-button-response","trial_index":5,"time_elapsed":124394,"internal_node_id":"0.0-5.0","correct":true},{"rt":6791.164999998728,"stimulus":["videos/scene_003.mp4"],"response":0,"scene_dir":"scene_003","answer":0,"gt_params":[3.55,2.96],"distractor_params":[1.06,0.75],"distance":11.0842,"trial_type":"video-button-response","trial_index":6,"time_elapsed":131188,"internal_node_id":"0.0-6.0","correct":true},{"rt":5923.660000000382,"stimulus":["videos/scene_004.mp4"],"response":0,"scene_dir":"scene_004","answer":0,"gt_params":[2.14,0.51],"distractor_params":[2.91,2.41],"distance":4.2029000000000005,"trial_type":"video-button-response","trial_index":7,"time_elapsed":137114,"internal_node_id":"0.0-7.0","correct":true},{"rt":8666.715000001219,"stimulus":["videos/scene_005.mp4"],"response":0,"scene_dir":"scene_005","answer":0,"gt_params":[0.48,3.17],"distractor_params":[0.3,2.06],"distance":1.2644999999999997,"trial_type":"video-button-response","trial_index":8,"time_elapsed":145784,"internal_node_id":"0.0-8.0","correct":true},{"rt":4446.860000000015,"stimulus":["videos/scene_006.mp4"],"response":1,"scene_dir":"scene_006","answer":1,"gt_params":[2.79,1.64],"distractor_params":[1.15,0.71],"distance":3.5545000000000004,"trial_type":"video-button-response","trial_index":9,"time_elapsed":150233,"internal_node_id":"0.0-9.0","correct":true},{"rt":4819.574999999517,"stimulus":["videos/scene_007.mp4"],"response":1,"scene_dir":"scene_007","answer":1,"gt_params":[0.8,0.05],"distractor_params":[2.18,1.85],"distance":5.144400000000001,"trial_type":"video-button-response","trial_index":10,"time_elapsed":155055,"internal_node_id":"0.0-10.0","correct":true},{"rt":5879.485000001267,"stimulus":["videos/scene_008.mp4"],"response":1,"scene_dir":"scene_008","answer":1,"gt_params":[1.14,3.75],"distractor_params":[1.93,2.84],"distance":1.4522000000000004,"trial_type":"video-button-response","trial_index":11,"time_elapsed":160937,"internal_node_id":"0.0-11.0","correct":true},{"rt":5064.575000000332,"stimulus":["videos/scene_009.mp4"],"response":1,"scene_dir":"scene_009","answer":1,"gt_params":[0.06,0.55],"distractor_params":[1.59,0.24],"distance":2.437,"trial_type":"video-button-response","trial_index":12,"time_elapsed":166004,"internal_node_id":"0.0-12.0","correct":true},{"rt":5485.604999999865,"stimulus":["videos/scene_010.mp4"],"response":0,"scene_dir":"scene_010","answer":1,"gt_params":[3.24,2.54],"distractor_params":[2.25,3.83],"distance":2.6442000000000005,"trial_type":"video-button-response","trial_index":13,"time_elapsed":171492,"internal_node_id":"0.0-13.0","correct":false},{"rt":10934.284999999392,"stimulus":["videos/scene_011.mp4"],"response":1,"scene_dir":"scene_011","answer":1,"gt_params":[0.56,2.91],"distractor_params":[0.09,3.98],"distance":1.3657999999999997,"trial_type":"video-button-response","trial_index":14,"time_elapsed":182429,"internal_node_id":"0.0-14.0","correct":true},{"rt":6768.7000000005355,"stimulus":["videos/scene_012.mp4"],"response":1,"scene_dir":"scene_012","answer":1,"gt_params":[0.24,3.54],"distractor_params":[1.14,0.35],"distance":10.9861,"trial_type":"video-button-response","trial_index":15,"time_elapsed":189201,"internal_node_id":"0.0-15.0","correct":true},{"rt":5912.129999998782,"stimulus":["videos/scene_013.mp4"],"response":1,"scene_dir":"scene_013","answer":1,"gt_params":[0.11,1.36],"distractor_params":[0.32,2.26],"distance":0.8540999999999994,"trial_type":"video-button-response","trial_index":16,"time_elapsed":195115,"internal_node_id":"0.0-16.0","correct":true},{"rt":4167.069999999483,"stimulus":["videos/scene_014.mp4"],"response":1,"scene_dir":"scene_014","answer":1,"gt_params":[0.72,3.5],"distractor_params":[3.64,2.43],"distance":9.671299999999999,"trial_type":"video-button-response","trial_index":17,"time_elapsed":199285,"internal_node_id":"0.0-17.0","correct":true},{"rt":4730.464999998716,"stimulus":["videos/scene_015.mp4"],"response":0,"scene_dir":"scene_015","answer":1,"gt_params":[1.32,3.7],"distractor_params":[0.6,2.94],"distance":1.0960000000000005,"trial_type":"video-button-response","trial_index":18,"time_elapsed":204018,"internal_node_id":"0.0-18.0","correct":false},{"rt":8927.214999999735,"stimulus":["videos/scene_016.mp4"],"response":1,"scene_dir":"scene_016","answer":0,"gt_params":[2.67,3.58],"distractor_params":[0.87,3.73],"distance":3.2624999999999993,"trial_type":"video-button-response","trial_index":19,"time_elapsed":212947,"internal_node_id":"0.0-19.0","correct":false},{"rt":3083.0850000002247,"stimulus":["videos/scene_017.mp4"],"response":1,"scene_dir":"scene_017","answer":1,"gt_params":[1.76,1.55],"distractor_params":[0.94,3.39],"distance":4.058,"trial_type":"video-button-response","trial_index":20,"time_elapsed":216033,"internal_node_id":"0.0-20.0","correct":true},{"rt":1806.0499999992317,"stimulus":["videos/scene_018.mp4"],"response":1,"scene_dir":"scene_018","answer":1,"gt_params":[1.97,0.28],"distractor_params":[3.42,2.75],"distance":8.203399999999998,"trial_type":"video-button-response","trial_index":21,"time_elapsed":217841,"internal_node_id":"0.0-21.0","correct":true},{"rt":5508.049999998533,"stimulus":["videos/scene_019.mp4"],"response":0,"scene_dir":"scene_019","answer":1,"gt_params":[1.35,1.91],"distractor_params":[0.49,1.86],"distance":0.7421000000000001,"trial_type":"video-button-response","trial_index":22,"time_elapsed":223351,"internal_node_id":"0.0-22.0","correct":false},{"view_history":[{"page_index":0,"viewing_time":1363.9800000000687}],"rt":1364.3400000000838,"trial_type":"instructions","trial_index":23,"time_elapsed":224717,"internal_node_id":"0.0-23.0"},{"rt":3856.7549999988696,"stimulus":["videos/scene_050.mp4"],"response":1,"scene_dir":"scene_050","answer":1,"gt_params":[2.95,0.91],"distractor_params":[1.21,0.77],"distance":3.047200000000001,"trial_type":"video-button-response","trial_index":24,"time_elapsed":228576,"internal_node_id":"0.0-24.0","correct":true},{"rt":2931.2150000005204,"stimulus":["videos/scene_051.mp4"],"response":0,"scene_dir":"scene_051","answer":0,"gt_params":[3.64,3.37],"distractor_params":[1.1,2.3],"distance":7.596500000000001,"trial_type":"video-button-response","trial_index":25,"time_elapsed":231510,"internal_node_id":"0.0-25.0","correct":true},{"rt":6549.515000000596,"stimulus":["videos/scene_052.mp4"],"response":1,"scene_dir":"scene_052","answer":1,"gt_params":[2.8,1.47],"distractor_params":[1.58,3.25],"distance":4.6568,"trial_type":"video-button-response","trial_index":26,"time_elapsed":238062,"internal_node_id":"0.0-26.0","correct":true},{"rt":4203.484999999986,"stimulus":["videos/scene_053.mp4"],"response":0,"scene_dir":"scene_053","answer":0,"gt_params":[3.52,2.71],"distractor_params":[3.02,1.06],"distance":2.9724999999999997,"trial_type":"video-button-response","trial_index":27,"time_elapsed":242268,"internal_node_id":"0.0-27.0","correct":true},{"rt":5775.174999998853,"stimulus":["videos/scene_054.mp4"],"response":0,"scene_dir":"scene_054","answer":0,"gt_params":[3.05,3.34],"distractor_params":[2.93,0.31],"distance":9.1953,"trial_type":"video-button-response","trial_index":28,"time_elapsed":248047,"internal_node_id":"0.0-28.0","correct":true},{"rt":2384.4950000002573,"stimulus":["videos/scene_055.mp4"],"response":0,"scene_dir":"scene_055","answer":0,"gt_params":[3.69,0.3],"distractor_params":[1.72,1.1],"distance":4.5209,"trial_type":"video-button-response","trial_index":29,"time_elapsed":250434,"internal_node_id":"0.0-29.0","correct":true},{"rt":1844.1600000005565,"stimulus":["videos/scene_056.mp4"],"response":0,"scene_dir":"scene_056","answer":0,"gt_params":[0.29,2.18],"distractor_params":[2.24,3.62],"distance":5.876100000000001,"trial_type":"video-button-response","trial_index":30,"time_elapsed":252280,"internal_node_id":"0.0-30.0","correct":true},{"rt":5893.240000001242,"stimulus":["videos/scene_057.mp4"],"response":0,"scene_dir":"scene_057","answer":0,"gt_params":[2.91,2.59],"distractor_params":[1.46,0.24],"distance":7.624999999999998,"trial_type":"video-button-response","trial_index":31,"time_elapsed":258175,"internal_node_id":"0.0-31.0","correct":true},{"rt":3266.2049999999,"stimulus":["videos/scene_058.mp4"],"response":1,"scene_dir":"scene_058","answer":1,"gt_params":[2.55,0.34],"distractor_params":[0.15,0.51],"distance":5.7889,"trial_type":"video-button-response","trial_index":32,"time_elapsed":261444,"internal_node_id":"0.0-32.0","correct":true},{"rt":1804.575000000128,"stimulus":["videos/scene_059.mp4"],"response":1,"scene_dir":"scene_059","answer":1,"gt_params":[1.18,0.61],"distractor_params":[3.99,3.18],"distance":14.501000000000005,"trial_type":"video-button-response","trial_index":33,"time_elapsed":263252,"internal_node_id":"0.0-33.0","correct":true},{"rt":9787.954999999783,"stimulus":["videos/scene_060.mp4"],"response":0,"scene_dir":"scene_060","answer":1,"gt_params":[3.81,1.12],"distractor_params":[3.44,1.92],"distance":0.7768999999999997,"trial_type":"video-button-response","trial_index":34,"time_elapsed":273042,"internal_node_id":"0.0-34.0","correct":false},{"rt":3437.9500000014086,"stimulus":["videos/scene_061.mp4"],"response":1,"scene_dir":"scene_061","answer":1,"gt_params":[1.43,2.74],"distractor_params":[0.07,2.62],"distance":1.8639999999999997,"trial_type":"video-button-response","trial_index":35,"time_elapsed":276483,"internal_node_id":"0.0-35.0","correct":true},{"rt":1827.0300000003772,"stimulus":["videos/scene_062.mp4"],"response":0,"scene_dir":"scene_062","answer":0,"gt_params":[3.82,0.31],"distractor_params":[2.2,2.51],"distance":7.464399999999998,"trial_type":"video-button-response","trial_index":36,"time_elapsed":278312,"internal_node_id":"0.0-36.0","correct":true},{"rt":6139.320000000182,"stimulus":["videos/scene_063.mp4"],"response":1,"scene_dir":"scene_063","answer":1,"gt_params":[2.19,0.36],"distractor_params":[0.95,3.9],"distance":14.0692,"trial_type":"video-button-response","trial_index":37,"time_elapsed":284454,"internal_node_id":"0.0-37.0","correct":true},{"rt":5839.814999999362,"stimulus":["videos/scene_064.mp4"],"response":1,"scene_dir":"scene_064","answer":1,"gt_params":[0.34,3.99],"distractor_params":[0.02,2.56],"distance":2.1473000000000004,"trial_type":"video-button-response","trial_index":38,"time_elapsed":290295,"internal_node_id":"0.0-38.0","correct":true},{"rt":11431.300000000163,"stimulus":["videos/scene_065.mp4"],"response":1,"scene_dir":"scene_065","answer":0,"gt_params":[3.97,2.94],"distractor_params":[3.87,3.64],"distance":0.5000000000000003,"trial_type":"video-button-response","trial_index":39,"time_elapsed":301729,"internal_node_id":"0.0-39.0","correct":false},{"rt":4755.105000000156,"stimulus":["videos/scene_066.mp4"],"response":0,"scene_dir":"scene_066","answer":1,"gt_params":[3.8,3.31],"distractor_params":[3.55,3.24],"distance":0.06739999999999997,"trial_type":"video-button-response","trial_index":40,"time_elapsed":306486,"internal_node_id":"0.0-40.0","correct":false},{"rt":3964.589999999618,"stimulus":["videos/scene_067.mp4"],"response":0,"scene_dir":"scene_067","answer":0,"gt_params":[3.48,3.31],"distractor_params":[1.38,2.04],"distance":6.0229,"trial_type":"video-button-response","trial_index":41,"time_elapsed":310453,"internal_node_id":"0.0-41.0","correct":true},{"rt":5620.129999999306,"stimulus":["videos/scene_068.mp4"],"response":1,"scene_dir":"scene_068","answer":1,"gt_params":[2.79,3.89],"distractor_params":[1.89,2.7],"distance":2.2261,"trial_type":"video-button-response","trial_index":42,"time_elapsed":316076,"internal_node_id":"0.0-42.0","correct":true},{"rt":1505.590000000666,"stimulus":["videos/scene_069.mp4"],"response":1,"scene_dir":"scene_069","answer":1,"gt_params":[0.42,1.76],"distractor_params":[3.7,2.19],"distance":10.943300000000002,"trial_type":"video-button-response","trial_index":43,"time_elapsed":317584,"internal_node_id":"0.0-43.0","correct":true},{"view_history":[{"page_index":0,"viewing_time":1024.3350000000792}],"rt":1024.595000000787,"trial_type":"instructions","trial_index":44,"time_elapsed":318610,"internal_node_id":"0.0-44.0"},{"rt":3570.4449999993667,"stimulus":["videos/scene_100.mp4"],"response":0,"scene_dir":"scene_100","answer":0,"gt_params":[2.08,1.99],"distractor_params":[3.23,2.95],"distance":2.2441,"trial_type":"video-button-response","trial_index":45,"time_elapsed":322182,"internal_node_id":"0.0-45.0","correct":true},{"rt":4404.5800000003655,"stimulus":["videos/scene_101.mp4"],"response":1,"scene_dir":"scene_101","answer":0,"gt_params":[3.57,0.94],"distractor_params":[2.64,1.75],"distance":1.5209999999999995,"trial_type":"video-button-response","trial_index":46,"time_elapsed":326589,"internal_node_id":"0.0-46.0","correct":false},{"rt":6844.56499999942,"stimulus":["videos/scene_102.mp4"],"response":0,"scene_dir":"scene_102","answer":0,"gt_params":[0.78,2.8],"distractor_params":[1.04,3.76],"distance":0.9892,"trial_type":"video-button-response","trial_index":47,"time_elapsed":333438,"internal_node_id":"0.0-47.0","correct":true},{"rt":9531.549999999697,"stimulus":["videos/scene_103.mp4"],"response":1,"scene_dir":"scene_103","answer":1,"gt_params":[3.68,0.58],"distractor_params":[0.5,0.21],"distance":10.249300000000002,"trial_type":"video-button-response","trial_index":48,"time_elapsed":342972,"internal_node_id":"0.0-48.0","correct":true},{"rt":13359.639999998792,"stimulus":["videos/scene_104.mp4"],"response":1,"scene_dir":"scene_104","answer":1,"gt_params":[0.88,1.72],"distractor_params":[0.4,0.53],"distance":1.6464999999999999,"trial_type":"video-button-response","trial_index":49,"time_elapsed":356335,"internal_node_id":"0.0-49.0","correct":true},{"rt":3318.369999999064,"stimulus":["videos/scene_105.mp4"],"response":0,"scene_dir":"scene_105","answer":0,"gt_params":[0.95,2.52],"distractor_params":[3.69,3.9],"distance":9.412,"trial_type":"video-button-response","trial_index":50,"time_elapsed":359656,"internal_node_id":"0.0-50.0","correct":true},{"rt":7183.82500000007,"stimulus":["videos/scene_106.mp4"],"response":1,"scene_dir":"scene_106","answer":1,"gt_params":[2,1.92],"distractor_params":[1.91,3.86],"distance":3.7717,"trial_type":"video-button-response","trial_index":51,"time_elapsed":366843,"internal_node_id":"0.0-51.0","correct":true},{"rt":7451.590000000608,"stimulus":["videos/scene_107.mp4"],"response":0,"scene_dir":"scene_107","answer":0,"gt_params":[1,1.65],"distractor_params":[0.74,3.82],"distance":4.7764999999999995,"trial_type":"video-button-response","trial_index":52,"time_elapsed":374297,"internal_node_id":"0.0-52.0","correct":true},{"rt":7561.534999998927,"stimulus":["videos/scene_108.mp4"],"response":1,"scene_dir":"scene_108","answer":0,"gt_params":[1.77,3.95],"distractor_params":[0.77,1.7],"distance":6.0625,"trial_type":"video-button-response","trial_index":53,"time_elapsed":381861,"internal_node_id":"0.0-53.0","correct":false},{"rt":8046.285000000324,"stimulus":["videos/scene_109.mp4"],"response":1,"scene_dir":"scene_109","answer":0,"gt_params":[2.62,2.51],"distractor_params":[1.87,2.74],"distance":0.6154000000000002,"trial_type":"video-button-response","trial_index":54,"time_elapsed":389909,"internal_node_id":"0.0-54.0","correct":false},{"rt":3581.4250000002794,"stimulus":["videos/scene_110.mp4"],"response":0,"scene_dir":"scene_110","answer":0,"gt_params":[2.58,2.3],"distractor_params":[2.48,1.21],"distance":1.1980999999999997,"trial_type":"video-button-response","trial_index":55,"time_elapsed":393493,"internal_node_id":"0.0-55.0","correct":true},{"rt":16489.524999999034,"stimulus":["videos/scene_111.mp4"],"response":0,"scene_dir":"scene_111","answer":1,"gt_params":[2.38,2.89],"distractor_params":[2.3,2.42],"distance":0.2273000000000002,"trial_type":"video-button-response","trial_index":56,"time_elapsed":409985,"internal_node_id":"0.0-56.0","correct":false},{"rt":7243.379999999888,"stimulus":["videos/scene_112.mp4"],"response":1,"scene_dir":"scene_112","answer":1,"gt_params":[2.99,0.18],"distractor_params":[3.56,0.53],"distance":0.4473999999999998,"trial_type":"video-button-response","trial_index":57,"time_elapsed":417231,"internal_node_id":"0.0-57.0","correct":true},{"rt":3649.3150000005844,"stimulus":["videos/scene_113.mp4"],"response":0,"scene_dir":"scene_113","answer":0,"gt_params":[3.25,3.38],"distractor_params":[2.55,1.12],"distance":5.597599999999999,"trial_type":"video-button-response","trial_index":58,"time_elapsed":420883,"internal_node_id":"0.0-58.0","correct":true},{"rt":3948.244999999588,"stimulus":["videos/scene_114.mp4"],"response":1,"scene_dir":"scene_114","answer":1,"gt_params":[2.38,0.22],"distractor_params":[2.2,1.6],"distance":1.9368000000000003,"trial_type":"video-button-response","trial_index":59,"time_elapsed":424834,"internal_node_id":"0.0-59.0","correct":true},{"rt":2916.0499999998137,"stimulus":["videos/scene_115.mp4"],"response":0,"scene_dir":"scene_115","answer":0,"gt_params":[2.24,1.62],"distractor_params":[1.35,2.89],"distance":2.4050000000000002,"trial_type":"video-button-response","trial_index":60,"time_elapsed":427752,"internal_node_id":"0.0-60.0","correct":true},{"rt":8671.25500000111,"stimulus":["videos/scene_116.mp4"],"response":0,"scene_dir":"scene_116","answer":1,"gt_params":[0.04,3.12],"distractor_params":[0.01,3.68],"distance":0.31450000000000006,"trial_type":"video-button-response","trial_index":61,"time_elapsed":436426,"internal_node_id":"0.0-61.0","correct":false},{"rt":9819.815000000759,"stimulus":["videos/scene_117.mp4"],"response":1,"scene_dir":"scene_117","answer":1,"gt_params":[1.98,1.46],"distractor_params":[1.96,1.81],"distance":0.12290000000000006,"trial_type":"video-button-response","trial_index":62,"time_elapsed":446248,"internal_node_id":"0.0-62.0","correct":true},{"rt":9397.214999999036,"stimulus":["videos/scene_118.mp4"],"response":0,"scene_dir":"scene_118","answer":0,"gt_params":[2.31,1.25],"distractor_params":[3.78,3.6],"distance":7.683400000000001,"trial_type":"video-button-response","trial_index":63,"time_elapsed":455648,"internal_node_id":"0.0-63.0","correct":true},{"rt":5874.199999998382,"stimulus":["videos/scene_119.mp4"],"response":0,"scene_dir":"scene_119","answer":0,"gt_params":[1.3,3.08],"distractor_params":[1,2.4],"distance":0.5524000000000002,"trial_type":"video-button-response","trial_index":64,"time_elapsed":461524,"internal_node_id":"0.0-64.0","correct":true},{"view_history":[{"page_index":0,"viewing_time":1104.5049999993062}],"rt":1104.859999999404,"trial_type":"instructions","trial_index":65,"time_elapsed":462630,"internal_node_id":"0.0-65.0"}]