[{"success":true,"timeout":false,"failed_images":[],"failed_audio":[],"failed_video":[],"trial_type":"preload","trial_index":0,"time_elapsed":3482,"internal_node_id":"0.0-0.0"},{"rt":3294,"response":{"user_id":"amir"},"trial_type":"survey-text","trial_index":1,"time_elapsed":6788,"internal_node_id":"0.0-1.0"},{"view_history":[{"page_index":0,"viewing_time":3017},{"page_index":1,"viewing_time":1413},{"page_index":0,"viewing_time":484},{"page_index":1,"viewing_time":597},{"page_index":0,"viewing_time":5467},{"page_index":1,"viewing_time":6962},{"page_index":0,"viewing_time":167},{"page_index":1,"viewing_time":1069},{"page_index":2,"viewing_time":9039},{"page_index":1,"viewing_time":288},{"page_index":2,"viewing_time":2485},{"page_index":3,"viewing_time":32497},{"page_index":4,"viewing_time":3679},{"page_index":5,"viewing_time":23622},{"page_index":6,"viewing_time":1064}],"rt":91851,"trial_type":"instructions","trial_index":2,"time_elapsed":98642,"internal_node_id":"0.0-2.0"},{"rt":3940,"stimulus":["videos/scene_000.mp4"],"response":1,"scene_dir":"scene_000","answer":1,"gt_params":[2.95,0.48],"distractor_params":[2.16,3.19],"distance":7.9682,"trial_type":"video-button-response","trial_index":3,"time_elapsed":102594,"internal_node_id":"0.0-3.0","correct":true},{"rt":1864,"stimulus":["videos/scene_001.mp4"],"response":0,"scene_dir":"scene_001","answer":0,"gt_params":[3.47,3.01],"distractor_params":[2.79,3],"distance":0.4625000000000002,"trial_type":"video-button-response","trial_index":4,"time_elapsed":104463,"internal_node_id":"0.0-4.0","correct":true},{"rt":1908,"stimulus":["videos/scene_002.mp4"],"response":1,"scene_dir":"scene_002","answer":1,"gt_params":[1.32,0.05],"distractor_params":[3.3,3.48],"distance":15.6853,"trial_type":"video-button-response","trial_index":5,"time_elapsed":106375,"internal_node_id":"0.0-5.0","correct":true},{"rt":2452,"stimulus":["videos/scene_003.mp4"],"response":1,"scene_dir":"scene_003","answer":1,"gt_params":[3.55,2.96],"distractor_params":[1.06,0.75],"distance":11.0842,"trial_type":"video-button-response","trial_index":6,"time_elapsed":108833,"internal_node_id":"0.0-6.0","correct":true},{"rt":5585,"stimulus":["videos/scene_004.mp4"],"response":0,"scene_dir":"scene_004","answer":0,"gt_params":[2.14,0.51],"distractor_params":[2.91,2.41],"distance":4.2029000000000005,"trial_type":"video-button-response","trial_index":7,"time_elapsed":114425,"internal_node_id":"0.0-7.0","correct":true},{"rt":3617,"stimulus":["videos/scene_005.mp4"],"response":0,"scene_dir":"scene_005","answer":0,"gt_params":[0.48,3.17],"distractor_params":[0.3,2.06],"distance":1.2644999999999997,"trial_type":"video-button-response","trial_index":8,"time_elapsed":118046,"internal_node_id":"0.0-8.0","correct":true},{"rt":3086,"stimulus":["videos/scene_006.mp4"],"response":1,"scene_dir":"scene_006","answer":1,"gt_params":[2.79,1.64],"distractor_params":[1.15,0.71],"distance":3.5545000000000004,"trial_type":"video-button-response","trial_index":9,"time_elapsed":121137,"internal_node_id":"0.0-9.0","correct":true},{"rt":1481,"stimulus":["videos/scene_007.mp4"],"response":0,"scene_dir":"scene_007","answer":0,"gt_params":[0.8,0.05],"distractor_params":[2.18,1.85],"distance":5.144400000000001,"trial_type":"video-button-response","trial_index":10,"time_elapsed":122621,"internal_node_id":"0.0-10.0","correct":true},{"rt":2794,"stimulus":["videos/scene_008.mp4"],"response":0,"scene_dir":"scene_008","answer":1,"gt_params":[1.14,3.75],"distractor_params":[1.93,2.84],"distance":1.4522000000000004,"trial_type":"video-button-response","trial_index":11,"time_elapsed":125419,"internal_node_id":"0.0-11.0","correct":false},{"rt":2445,"stimulus":["videos/scene_009.mp4"],"response":0,"scene_dir":"scene_009","answer":0,"gt_params":[0.06,0.55],"distractor_params":[1.59,0.24],"distance":2.437,"trial_type":"video-button-response","trial_index":12,"time_elapsed":127869,"internal_node_id":"0.0-12.0","correct":true},{"rt":11147,"stimulus":["videos/scene_010.mp4"],"response":1,"scene_dir":"scene_010","answer":1,"gt_params":[3.24,2.54],"distractor_params":[2.25,3.83],"distance":2.6442000000000005,"trial_type":"video-button-response","trial_index":13,"time_elapsed":139020,"internal_node_id":"0.0-13.0","correct":true},{"rt":8702,"stimulus":["videos/scene_011.mp4"],"response":0,"scene_dir":"scene_011","answer":1,"gt_params":[0.56,2.91],"distractor_params":[0.09,3.98],"distance":1.3657999999999997,"trial_type":"video-button-response","trial_index":14,"time_elapsed":147728,"internal_node_id":"0.0-14.0","correct":false},{"rt":1863,"stimulus":["videos/scene_012.mp4"],"response":0,"scene_dir":"scene_012","answer":0,"gt_params":[0.24,3.54],"distractor_params":[1.14,0.35],"distance":10.9861,"trial_type":"video-button-response","trial_index":15,"time_elapsed":149597,"internal_node_id":"0.0-15.0","correct":true},{"rt":3665,"stimulus":["videos/scene_013.mp4"],"response":1,"scene_dir":"scene_013","answer":1,"gt_params":[0.11,1.36],"distractor_params":[0.32,2.26],"distance":0.8540999999999994,"trial_type":"video-button-response","trial_index":16,"time_elapsed":153270,"internal_node_id":"0.0-16.0","correct":true},{"rt":2433,"stimulus":["videos/scene_014.mp4"],"response":1,"scene_dir":"scene_014","answer":1,"gt_params":[0.72,3.5],"distractor_params":[3.64,2.43],"distance":9.671299999999999,"trial_type":"video-button-response","trial_index":17,"time_elapsed":155706,"internal_node_id":"0.0-17.0","correct":true},{"rt":2820,"stimulus":["videos/scene_015.mp4"],"response":1,"scene_dir":"scene_015","answer":1,"gt_params":[1.32,3.7],"distractor_params":[0.6,2.94],"distance":1.0960000000000005,"trial_type":"video-button-response","trial_index":18,"time_elapsed":158529,"internal_node_id":"0.0-18.0","correct":true},{"rt":1699,"stimulus":["videos/scene_016.mp4"],"response":1,"scene_dir":"scene_016","answer":1,"gt_params":[2.67,3.58],"distractor_params":[0.87,3.73],"distance":3.2624999999999993,"trial_type":"video-button-response","trial_index":19,"time_elapsed":160234,"internal_node_id":"0.0-19.0","correct":true},{"rt":2986,"stimulus":["videos/scene_017.mp4"],"response":0,"scene_dir":"scene_017","answer":0,"gt_params":[1.76,1.55],"distractor_params":[0.94,3.39],"distance":4.058,"trial_type":"video-button-response","trial_index":20,"time_elapsed":163224,"internal_node_id":"0.0-20.0","correct":true},{"rt":4958,"stimulus":["videos/scene_018.mp4"],"response":1,"scene_dir":"scene_018","answer":1,"gt_params":[1.97,0.28],"distractor_params":[3.42,2.75],"distance":8.203399999999998,"trial_type":"video-button-response","trial_index":21,"time_elapsed":168186,"internal_node_id":"0.0-21.0","correct":true},{"rt":7870,"stimulus":["videos/scene_019.mp4"],"response":1,"scene_dir":"scene_019","answer":0,"gt_params":[1.35,1.91],"distractor_params":[0.49,1.86],"distance":0.7421000000000001,"trial_type":"video-button-response","trial_index":22,"time_elapsed":176060,"internal_node_id":"0.0-22.0","correct":false},{"view_history":[{"page_index":0,"viewing_time":881}],"rt":882,"trial_type":"instructions","trial_index":23,"time_elapsed":176943,"internal_node_id":"0.0-23.0"},{"rt":2146,"stimulus":["videos/scene_050.mp4"],"response":1,"scene_dir":"scene_050","answer":1,"gt_params":[2.95,0.91],"distractor_params":[1.21,0.77],"distance":3.047200000000001,"trial_type":"video-button-response","trial_index":24,"time_elapsed":179094,"internal_node_id":"0.0-24.0","correct":true},{"rt":1328,"stimulus":["videos/scene_051.mp4"],"response":0,"scene_dir":"scene_051","answer":0,"gt_params":[3.64,3.37],"distractor_params":[1.1,2.3],"distance":7.596500000000001,"trial_type":"video-button-response","trial_index":25,"time_elapsed":180426,"internal_node_id":"0.0-25.0","correct":true},{"rt":1368,"stimulus":["videos/scene_052.mp4"],"response":1,"scene_dir":"scene_052","answer":1,"gt_params":[2.8,1.47],"distractor_params":[1.58,3.25],"distance":4.6568,"trial_type":"video-button-response","trial_index":26,"time_elapsed":181800,"internal_node_id":"0.0-26.0","correct":true},{"rt":2084,"stimulus":["videos/scene_053.mp4"],"response":1,"scene_dir":"scene_053","answer":1,"gt_params":[3.52,2.71],"distractor_params":[3.02,1.06],"distance":2.9724999999999997,"trial_type":"video-button-response","trial_index":27,"time_elapsed":183886,"internal_node_id":"0.0-27.0","correct":true},{"rt":2232,"stimulus":["videos/scene_054.mp4"],"response":1,"scene_dir":"scene_054","answer":1,"gt_params":[3.05,3.34],"distractor_params":[2.93,0.31],"distance":9.1953,"trial_type":"video-button-response","trial_index":28,"time_elapsed":186124,"internal_node_id":"0.0-28.0","correct":true},{"rt":1736,"stimulus":["videos/scene_055.mp4"],"response":1,"scene_dir":"scene_055","answer":1,"gt_params":[3.69,0.3],"distractor_params":[1.72,1.1],"distance":4.5209,"trial_type":"video-button-response","trial_index":29,"time_elapsed":187866,"internal_node_id":"0.0-29.0","correct":true},{"rt":1435,"stimulus":["videos/scene_056.mp4"],"response":0,"scene_dir":"scene_056","answer":0,"gt_params":[0.29,2.18],"distractor_params":[2.24,3.62],"distance":5.876100000000001,"trial_type":"video-button-response","trial_index":30,"time_elapsed":189308,"internal_node_id":"0.0-30.0","correct":true},{"rt":1357,"stimulus":["videos/scene_057.mp4"],"response":1,"scene_dir":"scene_057","answer":1,"gt_params":[2.91,2.59],"distractor_params":[1.46,0.24],"distance":7.624999999999998,"trial_type":"video-button-response","trial_index":31,"time_elapsed":190669,"internal_node_id":"0.0-31.0","correct":true},{"rt":1306,"stimulus":["videos/scene_058.mp4"],"response":0,"scene_dir":"scene_058","answer":0,"gt_params":[2.55,0.34],"distractor_params":[0.15,0.51],"distance":5.7889,"trial_type":"video-button-response","trial_index":32,"time_elapsed":191980,"internal_node_id":"0.0-32.0","correct":true},{"rt":1094,"stimulus":["videos/scene_059.mp4"],"response":0,"scene_dir":"scene_059","answer":0,"gt_params":[1.18,0.61],"distractor_params":[3.99,3.18],"distance":14.501000000000005,"trial_type":"video-button-response","trial_index":33,"time_elapsed":193078,"internal_node_id":"0.0-33.0","correct":true},{"rt":4264,"stimulus":["videos/scene_060.mp4"],"response":0,"scene_dir":"scene_060","answer":0,"gt_params":[3.81,1.12],"distractor_params":[3.44,1.92],"distance":0.7768999999999997,"trial_type":"video-button-response","trial_index":34,"time_elapsed":197350,"internal_node_id":"0.0-34.0","correct":true},{"rt":1441,"stimulus":["videos/scene_061.mp4"],"response":1,"scene_dir":"scene_061","answer":1,"gt_params":[1.43,2.74],"distractor_params":[0.07,2.62],"distance":1.8639999999999997,"trial_type":"video-button-response","trial_index":35,"time_elapsed":198794,"internal_node_id":"0.0-35.0","correct":true},{"rt":1270,"stimulus":["videos/scene_062.mp4"],"response":0,"scene_dir":"scene_062","answer":0,"gt_params":[3.82,0.31],"distractor_params":[2.2,2.51],"distance":7.464399999999998,"trial_type":"video-button-response","trial_index":36,"time_elapsed":200068,"internal_node_id":"0.0-36.0","correct":true},{"rt":1295,"stimulus":["videos/scene_063.mp4"],"response":0,"scene_dir":"scene_063","answer":0,"gt_params":[2.19,0.36],"distractor_params":[0.95,3.9],"distance":14.0692,"trial_type":"video-button-response","trial_index":37,"time_elapsed":201371,"internal_node_id":"0.0-37.0","correct":true},{"rt":3766,"stimulus":["videos/scene_064.mp4"],"response":1,"scene_dir":"scene_064","answer":0,"gt_params":[0.34,3.99],"distractor_params":[0.02,2.56],"distance":2.1473000000000004,"trial_type":"video-button-response","trial_index":38,"time_elapsed":205141,"internal_node_id":"0.0-38.0","correct":false},{"rt":5532,"stimulus":["videos/scene_065.mp4"],"response":1,"scene_dir":"scene_065","answer":1,"gt_params":[3.97,2.94],"distractor_params":[3.87,3.64],"distance":0.5000000000000003,"trial_type":"video-button-response","trial_index":39,"time_elapsed":210681,"internal_node_id":"0.0-39.0","correct":true},{"rt":6397,"stimulus":["videos/scene_066.mp4"],"response":1,"scene_dir":"scene_066","answer":0,"gt_params":[3.8,3.31],"distractor_params":[3.55,3.24],"distance":0.06739999999999997,"trial_type":"video-button-response","trial_index":40,"time_elapsed":217084,"internal_node_id":"0.0-40.0","correct":false},{"rt":1553,"stimulus":["videos/scene_067.mp4"],"response":0,"scene_dir":"scene_067","answer":0,"gt_params":[3.48,3.31],"distractor_params":[1.38,2.04],"distance":6.0229,"trial_type":"video-button-response","trial_index":41,"time_elapsed":218642,"internal_node_id":"0.0-41.0","correct":true},{"rt":1834,"stimulus":["videos/scene_068.mp4"],"response":1,"scene_dir":"scene_068","answer":1,"gt_params":[2.79,3.89],"distractor_params":[1.89,2.7],"distance":2.2261,"trial_type":"video-button-response","trial_index":42,"time_elapsed":220481,"internal_node_id":"0.0-42.0","correct":true},{"rt":1123,"stimulus":["videos/scene_069.mp4"],"response":0,"scene_dir":"scene_069","answer":0,"gt_params":[0.42,1.76],"distractor_params":[3.7,2.19],"distance":10.943300000000002,"trial_type":"video-button-response","trial_index":43,"time_elapsed":221607,"internal_node_id":"0.0-43.0","correct":true},{"view_history":[{"page_index":0,"viewing_time":768}],"rt":768,"trial_type":"instructions","trial_index":44,"time_elapsed":222377,"internal_node_id":"0.0-44.0"},{"rt":3971,"stimulus":["videos/scene_100.mp4"],"response":1,"scene_dir":"scene_100","answer":1,"gt_params":[2.08,1.99],"distractor_params":[3.23,2.95],"distance":2.2441,"trial_type":"video-button-response","trial_index":45,"time_elapsed":226353,"internal_node_id":"0.0-45.0","correct":true},{"rt":2677,"stimulus":["videos/scene_101.mp4"],"response":0,"scene_dir":"scene_101","answer":0,"gt_params":[3.57,0.94],"distractor_params":[2.64,1.75],"distance":1.5209999999999995,"trial_type":"video-button-response","trial_index":46,"time_elapsed":229032,"internal_node_id":"0.0-46.0","correct":true},{"rt":3007,"stimulus":["videos/scene_102.mp4"],"response":0,"scene_dir":"scene_102","answer":0,"gt_params":[0.78,2.8],"distractor_params":[1.04,3.76],"distance":0.9892,"trial_type":"video-button-response","trial_index":47,"time_elapsed":232045,"internal_node_id":"0.0-47.0","correct":true},{"rt":2161,"stimulus":["videos/scene_103.mp4"],"response":1,"scene_dir":"scene_103","answer":1,"gt_params":[3.68,0.58],"distractor_params":[0.5,0.21],"distance":10.249300000000002,"trial_type":"video-button-response","trial_index":48,"time_elapsed":234210,"internal_node_id":"0.0-48.0","correct":true},{"rt":4421,"stimulus":["videos/scene_104.mp4"],"response":1,"scene_dir":"scene_104","answer":1,"gt_params":[0.88,1.72],"distractor_params":[0.4,0.53],"distance":1.6464999999999999,"trial_type":"video-button-response","trial_index":49,"time_elapsed":238635,"internal_node_id":"0.0-49.0","correct":true},{"rt":1266,"stimulus":["videos/scene_105.mp4"],"response":0,"scene_dir":"scene_105","answer":0,"gt_params":[0.95,2.52],"distractor_params":[3.69,3.9],"distance":9.412,"trial_type":"video-button-response","trial_index":50,"time_elapsed":239908,"internal_node_id":"0.0-50.0","correct":true},{"rt":7509,"stimulus":["videos/scene_106.mp4"],"response":1,"scene_dir":"scene_106","answer":0,"gt_params":[2,1.92],"distractor_params":[1.91,3.86],"distance":3.7717,"trial_type":"video-button-response","trial_index":51,"time_elapsed":247422,"internal_node_id":"0.0-51.0","correct":false},{"rt":3350,"stimulus":["videos/scene_107.mp4"],"response":0,"scene_dir":"scene_107","answer":0,"gt_params":[1,1.65],"distractor_params":[0.74,3.82],"distance":4.7764999999999995,"trial_type":"video-button-response","trial_index":52,"time_elapsed":250777,"internal_node_id":"0.0-52.0","correct":true},{"rt":2375,"stimulus":["videos/scene_108.mp4"],"response":1,"scene_dir":"scene_108","answer":1,"gt_params":[1.77,3.95],"distractor_params":[0.77,1.7],"distance":6.0625,"trial_type":"video-button-response","trial_index":53,"time_elapsed":253158,"internal_node_id":"0.0-53.0","correct":true},{"rt":3940,"stimulus":["videos/scene_109.mp4"],"response":1,"scene_dir":"scene_109","answer":1,"gt_params":[2.62,2.51],"distractor_params":[1.87,2.74],"distance":0.6154000000000002,"trial_type":"video-button-response","trial_index":54,"time_elapsed":257102,"internal_node_id":"0.0-54.0","correct":true},{"rt":5025,"stimulus":["videos/scene_110.mp4"],"response":0,"scene_dir":"scene_110","answer":0,"gt_params":[2.58,2.3],"distractor_params":[2.48,1.21],"distance":1.1980999999999997,"trial_type":"video-button-response","trial_index":55,"time_elapsed":262132,"internal_node_id":"0.0-55.0","correct":true},{"rt":6224,"stimulus":["videos/scene_111.mp4"],"response":1,"scene_dir":"scene_111","answer":0,"gt_params":[2.38,2.89],"distractor_params":[2.3,2.42],"distance":0.2273000000000002,"trial_type":"video-button-response","trial_index":56,"time_elapsed":268363,"internal_node_id":"0.0-56.0","correct":false},{"rt":4771,"stimulus":["videos/scene_112.mp4"],"response":1,"scene_dir":"scene_112","answer":1,"gt_params":[2.99,0.18],"distractor_params":[3.56,0.53],"distance":0.4473999999999998,"trial_type":"video-button-response","trial_index":57,"time_elapsed":273139,"internal_node_id":"0.0-57.0","correct":true},{"rt":4169,"stimulus":["videos/scene_113.mp4"],"response":0,"scene_dir":"scene_113","answer":0,"gt_params":[3.25,3.38],"distractor_params":[2.55,1.12],"distance":5.597599999999999,"trial_type":"video-button-response","trial_index":58,"time_elapsed":277315,"internal_node_id":"0.0-58.0","correct":true},{"rt":4993,"stimulus":["videos/scene_114.mp4"],"response":1,"scene_dir":"scene_114","answer":1,"gt_params":[2.38,0.22],"distractor_params":[2.2,1.6],"distance":1.9368000000000003,"trial_type":"video-button-response","trial_index":59,"time_elapsed":282315,"internal_node_id":"0.0-59.0","correct":true},{"rt":2937,"stimulus":["videos/scene_115.mp4"],"response":0,"scene_dir":"scene_115","answer":0,"gt_params":[2.24,1.62],"distractor_params":[1.35,2.89],"distance":2.4050000000000002,"trial_type":"video-button-response","trial_index":60,"time_elapsed":285256,"internal_node_id":"0.0-60.0","correct":true},{"rt":7412,"stimulus":["videos/scene_116.mp4"],"response":0,"scene_dir":"scene_116","answer":1,"gt_params":[0.04,3.12],"distractor_params":[0.01,3.68],"distance":0.31450000000000006,"trial_type":"video-button-response","trial_index":61,"time_elapsed":292674,"internal_node_id":"0.0-61.0","correct":false},{"rt":8217,"stimulus":["videos/scene_117.mp4"],"response":0,"scene_dir":"scene_117","answer":0,"gt_params":[1.98,1.46],"distractor_params":[1.96,1.81],"distance":0.12290000000000006,"trial_type":"video-button-response","trial_index":62,"time_elapsed":300896,"internal_node_id":"0.0-62.0","correct":true},{"rt":2034,"stimulus":["videos/scene_118.mp4"],"response":0,"scene_dir":"scene_118","answer":0,"gt_params":[2.31,1.25],"distractor_params":[3.78,3.6],"distance":7.683400000000001,"trial_type":"video-button-response","trial_index":63,"time_elapsed":302935,"internal_node_id":"0.0-63.0","correct":true},{"rt":6209,"stimulus":["videos/scene_119.mp4"],"response":1,"scene_dir":"scene_119","answer":0,"gt_params":[1.3,3.08],"distractor_params":[1,2.4],"distance":0.5524000000000002,"trial_type":"video-button-response","trial_index":64,"time_elapsed":309148,"internal_node_id":"0.0-64.0","correct":false},{"view_history":[{"page_index":0,"viewing_time":1106}],"rt":1106,"trial_type":"instructions","trial_index":65,"time_elapsed":310257,"internal_node_id":"0.0-65.0"}]