[{"success":true,"timeout":false,"failed_images":[],"failed_audio":[],"failed_video":[],"trial_type":"preload","trial_index":0,"time_elapsed":693,"internal_node_id":"0.0-0.0"},{"rt":9445.79000000067,"response":{"user_id":"Muhammad Arif"},"trial_type":"survey-text","trial_index":1,"time_elapsed":10145,"internal_node_id":"0.0-1.0"},{"view_history":[{"page_index":0,"viewing_time":6155.064999999922},{"page_index":1,"viewing_time":4118.050000000039},{"page_index":2,"viewing_time":11387.069999999767},{"page_index":3,"viewing_time":5450.439999999617},{"page_index":4,"viewing_time":5938.700000000608},{"page_index":5,"viewing_time":5066.649999999754},{"page_index":6,"viewing_time":938.3800000005067}],"rt":39054.50999999994,"trial_type":"instructions","trial_index":2,"time_elapsed":49200,"internal_node_id":"0.0-2.0"},{"rt":9684.675000000425,"stimulus":["videos/scene_000.mp4"],"response":0,"scene_dir":"scene_000","answer":0,"gt_params":[2.95,0.48],"distractor_params":[2.16,3.19],"distance":7.9682,"trial_type":"video-button-response","trial_index":3,"time_elapsed":58887,"internal_node_id":"0.0-3.0","correct":true},{"rt":11656.914999999572,"stimulus":["videos/scene_001.mp4"],"response":0,"scene_dir":"scene_001","answer":1,"gt_params":[3.47,3.01],"distractor_params":[2.79,3],"distance":0.4625000000000002,"trial_type":"video-button-response","trial_index":4,"time_elapsed":70548,"internal_node_id":"0.0-4.0","correct":false},{"rt":6290.560000000376,"stimulus":["videos/scene_002.mp4"],"response":0,"scene_dir":"scene_002","answer":0,"gt_params":[1.32,0.05],"distractor_params":[3.3,3.48],"distance":15.6853,"trial_type":"video-button-response","trial_index":5,"time_elapsed":76843,"internal_node_id":"0.0-5.0","correct":true},{"rt":6563.849999999555,"stimulus":["videos/scene_003.mp4"],"response":0,"scene_dir":"scene_003","answer":0,"gt_params":[3.55,2.96],"distractor_params":[1.06,0.75],"distance":11.0842,"trial_type":"video-button-response","trial_index":6,"time_elapsed":83412,"internal_node_id":"0.0-6.0","correct":true},{"rt":7111.2100000000355,"stimulus":["videos/scene_004.mp4"],"response":0,"scene_dir":"scene_004","answer":1,"gt_params":[2.14,0.51],"distractor_params":[2.91,2.41],"distance":4.2029000000000005,"trial_type":"video-button-response","trial_index":7,"time_elapsed":90531,"internal_node_id":"0.0-7.0","correct":false},{"rt":5755.830000000045,"stimulus":["videos/scene_005.mp4"],"response":0,"scene_dir":"scene_005","answer":0,"gt_params":[0.48,3.17],"distractor_params":[0.3,2.06],"distance":1.2644999999999997,"trial_type":"video-button-response","trial_index":8,"time_elapsed":96294,"internal_node_id":"0.0-8.0","correct":true},{"rt":6366.230000000549,"stimulus":["videos/scene_006.mp4"],"response":1,"scene_dir":"scene_006","answer":1,"gt_params":[2.79,1.64],"distractor_params":[1.15,0.71],"distance":3.5545000000000004,"trial_type":"video-button-response","trial_index":9,"time_elapsed":102667,"internal_node_id":"0.0-9.0","correct":true},{"rt":4433.280000000188,"stimulus":["videos/scene_007.mp4"],"response":0,"scene_dir":"scene_007","answer":0,"gt_params":[0.8,0.05],"distractor_params":[2.18,1.85],"distance":5.144400000000001,"trial_type":"video-button-response","trial_index":10,"time_elapsed":107106,"internal_node_id":"0.0-10.0","correct":true},{"rt":6718.0550000002695,"stimulus":["videos/scene_008.mp4"],"response":0,"scene_dir":"scene_008","answer":0,"gt_params":[1.14,3.75],"distractor_params":[1.93,2.84],"distance":1.4522000000000004,"trial_type":"video-button-response","trial_index":11,"time_elapsed":113831,"internal_node_id":"0.0-11.0","correct":true},{"rt":6347.685000000638,"stimulus":["videos/scene_009.mp4"],"response":0,"scene_dir":"scene_009","answer":0,"gt_params":[0.06,0.55],"distractor_params":[1.59,0.24],"distance":2.437,"trial_type":"video-button-response","trial_index":12,"time_elapsed":120186,"internal_node_id":"0.0-12.0","correct":true},{"rt":6771.679999999833,"stimulus":["videos/scene_010.mp4"],"response":0,"scene_dir":"scene_010","answer":1,"gt_params":[3.24,2.54],"distractor_params":[2.25,3.83],"distance":2.6442000000000005,"trial_type":"video-button-response","trial_index":13,"time_elapsed":126965,"internal_node_id":"0.0-13.0","correct":false},{"rt":19130.594999999637,"stimulus":["videos/scene_011.mp4"],"response":1,"scene_dir":"scene_011","answer":0,"gt_params":[0.56,2.91],"distractor_params":[0.09,3.98],"distance":1.3657999999999997,"trial_type":"video-button-response","trial_index":14,"time_elapsed":146102,"internal_node_id":"0.0-14.0","correct":false},{"rt":3196.904999999766,"stimulus":["videos/scene_012.mp4"],"response":1,"scene_dir":"scene_012","answer":1,"gt_params":[0.24,3.54],"distractor_params":[1.14,0.35],"distance":10.9861,"trial_type":"video-button-response","trial_index":15,"time_elapsed":149306,"internal_node_id":"0.0-15.0","correct":true},{"rt":7453.855000000651,"stimulus":["videos/scene_013.mp4"],"response":1,"scene_dir":"scene_013","answer":0,"gt_params":[0.11,1.36],"distractor_params":[0.32,2.26],"distance":0.8540999999999994,"trial_type":"video-button-response","trial_index":16,"time_elapsed":156764,"internal_node_id":"0.0-16.0","correct":false},{"rt":7308.179999999993,"stimulus":["videos/scene_014.mp4"],"response":0,"scene_dir":"scene_014","answer":1,"gt_params":[0.72,3.5],"distractor_params":[3.64,2.43],"distance":9.671299999999999,"trial_type":"video-button-response","trial_index":17,"time_elapsed":164078,"internal_node_id":"0.0-17.0","correct":false},{"rt":6884.315000000264,"stimulus":["videos/scene_015.mp4"],"response":1,"scene_dir":"scene_015","answer":1,"gt_params":[1.32,3.7],"distractor_params":[0.6,2.94],"distance":1.0960000000000005,"trial_type":"video-button-response","trial_index":18,"time_elapsed":170970,"internal_node_id":"0.0-18.0","correct":true},{"rt":7099.165000000532,"stimulus":["videos/scene_016.mp4"],"response":0,"scene_dir":"scene_016","answer":0,"gt_params":[2.67,3.58],"distractor_params":[0.87,3.73],"distance":3.2624999999999993,"trial_type":"video-button-response","trial_index":19,"time_elapsed":178076,"internal_node_id":"0.0-19.0","correct":true},{"rt":15185.945000000182,"stimulus":["videos/scene_017.mp4"],"response":1,"scene_dir":"scene_017","answer":1,"gt_params":[1.76,1.55],"distractor_params":[0.94,3.39],"distance":4.058,"trial_type":"video-button-response","trial_index":20,"time_elapsed":193269,"internal_node_id":"0.0-20.0","correct":true},{"rt":8074.520000000135,"stimulus":["videos/scene_018.mp4"],"response":0,"scene_dir":"scene_018","answer":0,"gt_params":[1.97,0.28],"distractor_params":[3.42,2.75],"distance":8.203399999999998,"trial_type":"video-button-response","trial_index":21,"time_elapsed":201352,"internal_node_id":"0.0-21.0","correct":true},{"rt":12464.565000000206,"stimulus":["videos/scene_019.mp4"],"response":1,"scene_dir":"scene_019","answer":0,"gt_params":[1.35,1.91],"distractor_params":[0.49,1.86],"distance":0.7421000000000001,"trial_type":"video-button-response","trial_index":22,"time_elapsed":213825,"internal_node_id":"0.0-22.0","correct":false},{"view_history":[{"page_index":0,"viewing_time":1830.2850000000035}],"rt":1830.7200000008452,"trial_type":"instructions","trial_index":23,"time_elapsed":215659,"internal_node_id":"0.0-23.0"},{"rt":3590.4099999997998,"stimulus":["videos/scene_050.mp4"],"response":1,"scene_dir":"scene_050","answer":1,"gt_params":[2.95,0.91],"distractor_params":[1.21,0.77],"distance":3.047200000000001,"trial_type":"video-button-response","trial_index":24,"time_elapsed":219254,"internal_node_id":"0.0-24.0","correct":true},{"rt":3681.4400000002934,"stimulus":["videos/scene_051.mp4"],"response":0,"scene_dir":"scene_051","answer":0,"gt_params":[3.64,3.37],"distractor_params":[1.1,2.3],"distance":7.596500000000001,"trial_type":"video-button-response","trial_index":25,"time_elapsed":222942,"internal_node_id":"0.0-25.0","correct":true},{"rt":2749.2499999998545,"stimulus":["videos/scene_052.mp4"],"response":0,"scene_dir":"scene_052","answer":0,"gt_params":[2.8,1.47],"distractor_params":[1.58,3.25],"distance":4.6568,"trial_type":"video-button-response","trial_index":26,"time_elapsed":225698,"internal_node_id":"0.0-26.0","correct":true},{"rt":5575.330000000598,"stimulus":["videos/scene_053.mp4"],"response":1,"scene_dir":"scene_053","answer":0,"gt_params":[3.52,2.71],"distractor_params":[3.02,1.06],"distance":2.9724999999999997,"trial_type":"video-button-response","trial_index":27,"time_elapsed":231280,"internal_node_id":"0.0-27.0","correct":false},{"rt":2824.6449999996985,"stimulus":["videos/scene_054.mp4"],"response":1,"scene_dir":"scene_054","answer":1,"gt_params":[3.05,3.34],"distractor_params":[2.93,0.31],"distance":9.1953,"trial_type":"video-button-response","trial_index":28,"time_elapsed":234111,"internal_node_id":"0.0-28.0","correct":true},{"rt":2094.509999999893,"stimulus":["videos/scene_055.mp4"],"response":1,"scene_dir":"scene_055","answer":1,"gt_params":[3.69,0.3],"distractor_params":[1.72,1.1],"distance":4.5209,"trial_type":"video-button-response","trial_index":29,"time_elapsed":236212,"internal_node_id":"0.0-29.0","correct":true},{"rt":2913.12000000017,"stimulus":["videos/scene_056.mp4"],"response":1,"scene_dir":"scene_056","answer":1,"gt_params":[0.29,2.18],"distractor_params":[2.24,3.62],"distance":5.876100000000001,"trial_type":"video-button-response","trial_index":30,"time_elapsed":239132,"internal_node_id":"0.0-30.0","correct":true},{"rt":5837.365000000311,"stimulus":["videos/scene_057.mp4"],"response":0,"scene_dir":"scene_057","answer":0,"gt_params":[2.91,2.59],"distractor_params":[1.46,0.24],"distance":7.624999999999998,"trial_type":"video-button-response","trial_index":31,"time_elapsed":244974,"internal_node_id":"0.0-31.0","correct":true},{"rt":4693.569999999454,"stimulus":["videos/scene_058.mp4"],"response":1,"scene_dir":"scene_058","answer":1,"gt_params":[2.55,0.34],"distractor_params":[0.15,0.51],"distance":5.7889,"trial_type":"video-button-response","trial_index":32,"time_elapsed":249674,"internal_node_id":"0.0-32.0","correct":true},{"rt":3072.059999999503,"stimulus":["videos/scene_059.mp4"],"response":0,"scene_dir":"scene_059","answer":0,"gt_params":[1.18,0.61],"distractor_params":[3.99,3.18],"distance":14.501000000000005,"trial_type":"video-button-response","trial_index":33,"time_elapsed":252753,"internal_node_id":"0.0-33.0","correct":true},{"rt":2874.5400000007066,"stimulus":["videos/scene_060.mp4"],"response":0,"scene_dir":"scene_060","answer":0,"gt_params":[3.81,1.12],"distractor_params":[3.44,1.92],"distance":0.7768999999999997,"trial_type":"video-button-response","trial_index":34,"time_elapsed":255634,"internal_node_id":"0.0-34.0","correct":true},{"rt":7526.635000000184,"stimulus":["videos/scene_061.mp4"],"response":0,"scene_dir":"scene_061","answer":0,"gt_params":[1.43,2.74],"distractor_params":[0.07,2.62],"distance":1.8639999999999997,"trial_type":"video-button-response","trial_index":35,"time_elapsed":263167,"internal_node_id":"0.0-35.0","correct":true},{"rt":3845.069999999425,"stimulus":["videos/scene_062.mp4"],"response":0,"scene_dir":"scene_062","answer":0,"gt_params":[3.82,0.31],"distractor_params":[2.2,2.51],"distance":7.464399999999998,"trial_type":"video-button-response","trial_index":36,"time_elapsed":267019,"internal_node_id":"0.0-36.0","correct":true},{"rt":6103.070000000123,"stimulus":["videos/scene_063.mp4"],"response":1,"scene_dir":"scene_063","answer":1,"gt_params":[2.19,0.36],"distractor_params":[0.95,3.9],"distance":14.0692,"trial_type":"video-button-response","trial_index":37,"time_elapsed":273128,"internal_node_id":"0.0-37.0","correct":true},{"rt":9820.520000000193,"stimulus":["videos/scene_064.mp4"],"response":0,"scene_dir":"scene_064","answer":0,"gt_params":[0.34,3.99],"distractor_params":[0.02,2.56],"distance":2.1473000000000004,"trial_type":"video-button-response","trial_index":38,"time_elapsed":282956,"internal_node_id":"0.0-38.0","correct":true},{"rt":37269.86500000022,"stimulus":["videos/scene_065.mp4"],"response":1,"scene_dir":"scene_065","answer":1,"gt_params":[3.97,2.94],"distractor_params":[3.87,3.64],"distance":0.5000000000000003,"trial_type":"video-button-response","trial_index":39,"time_elapsed":320234,"internal_node_id":"0.0-39.0","correct":true},{"rt":4085.0799999998417,"stimulus":["videos/scene_066.mp4"],"response":1,"scene_dir":"scene_066","answer":1,"gt_params":[3.8,3.31],"distractor_params":[3.55,3.24],"distance":0.06739999999999997,"trial_type":"video-button-response","trial_index":40,"time_elapsed":324325,"internal_node_id":"0.0-40.0","correct":true},{"rt":2408.5649999997695,"stimulus":["videos/scene_067.mp4"],"response":0,"scene_dir":"scene_067","answer":0,"gt_params":[3.48,3.31],"distractor_params":[1.38,2.04],"distance":6.0229,"trial_type":"video-button-response","trial_index":41,"time_elapsed":326739,"internal_node_id":"0.0-41.0","correct":true},{"rt":4724.1149999999325,"stimulus":["videos/scene_068.mp4"],"response":0,"scene_dir":"scene_068","answer":0,"gt_params":[2.79,3.89],"distractor_params":[1.89,2.7],"distance":2.2261,"trial_type":"video-button-response","trial_index":42,"time_elapsed":331472,"internal_node_id":"0.0-42.0","correct":true},{"rt":4399.019999999844,"stimulus":["videos/scene_069.mp4"],"response":0,"scene_dir":"scene_069","answer":0,"gt_params":[0.42,1.76],"distractor_params":[3.7,2.19],"distance":10.943300000000002,"trial_type":"video-button-response","trial_index":43,"time_elapsed":335876,"internal_node_id":"0.0-43.0","correct":true},{"view_history":[{"page_index":0,"viewing_time":1127.3200000004726}],"rt":1127.8050000000512,"trial_type":"instructions","trial_index":44,"time_elapsed":337008,"internal_node_id":"0.0-44.0"},{"rt":3578.7250000002678,"stimulus":["videos/scene_100.mp4"],"response":1,"scene_dir":"scene_100","answer":1,"gt_params":[2.08,1.99],"distractor_params":[3.23,2.95],"distance":2.2441,"trial_type":"video-button-response","trial_index":45,"time_elapsed":340591,"internal_node_id":"0.0-45.0","correct":true},{"rt":3609.244999999646,"stimulus":["videos/scene_101.mp4"],"response":1,"scene_dir":"scene_101","answer":1,"gt_params":[3.57,0.94],"distractor_params":[2.64,1.75],"distance":1.5209999999999995,"trial_type":"video-button-response","trial_index":46,"time_elapsed":344208,"internal_node_id":"0.0-46.0","correct":true},{"rt":7588.010000000417,"stimulus":["videos/scene_102.mp4"],"response":1,"scene_dir":"scene_102","answer":0,"gt_params":[0.78,2.8],"distractor_params":[1.04,3.76],"distance":0.9892,"trial_type":"video-button-response","trial_index":47,"time_elapsed":351803,"internal_node_id":"0.0-47.0","correct":false},{"rt":6489.110000000452,"stimulus":["videos/scene_103.mp4"],"response":1,"scene_dir":"scene_103","answer":1,"gt_params":[3.68,0.58],"distractor_params":[0.5,0.21],"distance":10.249300000000002,"trial_type":"video-button-response","trial_index":48,"time_elapsed":358298,"internal_node_id":"0.0-48.0","correct":true},{"rt":4251.274999999616,"stimulus":["videos/scene_104.mp4"],"response":1,"scene_dir":"scene_104","answer":0,"gt_params":[0.88,1.72],"distractor_params":[0.4,0.53],"distance":1.6464999999999999,"trial_type":"video-button-response","trial_index":49,"time_elapsed":362554,"internal_node_id":"0.0-49.0","correct":false},{"rt":6160.775000000314,"stimulus":["videos/scene_105.mp4"],"response":1,"scene_dir":"scene_105","answer":0,"gt_params":[0.95,2.52],"distractor_params":[3.69,3.9],"distance":9.412,"trial_type":"video-button-response","trial_index":50,"time_elapsed":368721,"internal_node_id":"0.0-50.0","correct":false},{"rt":4076.404999999795,"stimulus":["videos/scene_106.mp4"],"response":1,"scene_dir":"scene_106","answer":0,"gt_params":[2,1.92],"distractor_params":[1.91,3.86],"distance":3.7717,"trial_type":"video-button-response","trial_index":51,"time_elapsed":372803,"internal_node_id":"0.0-51.0","correct":false},{"rt":3143.200000000419,"stimulus":["videos/scene_107.mp4"],"response":0,"scene_dir":"scene_107","answer":1,"gt_params":[1,1.65],"distractor_params":[0.74,3.82],"distance":4.7764999999999995,"trial_type":"video-button-response","trial_index":52,"time_elapsed":375952,"internal_node_id":"0.0-52.0","correct":false},{"rt":5984.145000000368,"stimulus":["videos/scene_108.mp4"],"response":1,"scene_dir":"scene_108","answer":1,"gt_params":[1.77,3.95],"distractor_params":[0.77,1.7],"distance":6.0625,"trial_type":"video-button-response","trial_index":53,"time_elapsed":381942,"internal_node_id":"0.0-53.0","correct":true},{"rt":5222.2050000000745,"stimulus":["videos/scene_109.mp4"],"response":0,"scene_dir":"scene_109","answer":0,"gt_params":[2.62,2.51],"distractor_params":[1.87,2.74],"distance":0.6154000000000002,"trial_type":"video-button-response","trial_index":54,"time_elapsed":387171,"internal_node_id":"0.0-54.0","correct":true},{"rt":3032.8250000002445,"stimulus":["videos/scene_110.mp4"],"response":0,"scene_dir":"scene_110","answer":0,"gt_params":[2.58,2.3],"distractor_params":[2.48,1.21],"distance":1.1980999999999997,"trial_type":"video-button-response","trial_index":55,"time_elapsed":390211,"internal_node_id":"0.0-55.0","correct":true},{"rt":18929.789999999222,"stimulus":["videos/scene_111.mp4"],"response":0,"scene_dir":"scene_111","answer":1,"gt_params":[2.38,2.89],"distractor_params":[2.3,2.42],"distance":0.2273000000000002,"trial_type":"video-button-response","trial_index":56,"time_elapsed":409147,"internal_node_id":"0.0-56.0","correct":false},{"rt":3886.599999999802,"stimulus":["videos/scene_112.mp4"],"response":1,"scene_dir":"scene_112","answer":0,"gt_params":[2.99,0.18],"distractor_params":[3.56,0.53],"distance":0.4473999999999998,"trial_type":"video-button-response","trial_index":57,"time_elapsed":413040,"internal_node_id":"0.0-57.0","correct":false},{"rt":2347.8050000003423,"stimulus":["videos/scene_113.mp4"],"response":0,"scene_dir":"scene_113","answer":0,"gt_params":[3.25,3.38],"distractor_params":[2.55,1.12],"distance":5.597599999999999,"trial_type":"video-button-response","trial_index":58,"time_elapsed":415396,"internal_node_id":"0.0-58.0","correct":true},{"rt":3250.3899999992573,"stimulus":["videos/scene_114.mp4"],"response":0,"scene_dir":"scene_114","answer":1,"gt_params":[2.38,0.22],"distractor_params":[2.2,1.6],"distance":1.9368000000000003,"trial_type":"video-button-response","trial_index":59,"time_elapsed":418652,"internal_node_id":"0.0-59.0","correct":false},{"rt":2961.1900000000023,"stimulus":["videos/scene_115.mp4"],"response":0,"scene_dir":"scene_115","answer":0,"gt_params":[2.24,1.62],"distractor_params":[1.35,2.89],"distance":2.4050000000000002,"trial_type":"video-button-response","trial_index":60,"time_elapsed":421619,"internal_node_id":"0.0-60.0","correct":true},{"rt":1412.0049999991897,"stimulus":["videos/scene_116.mp4"],"response":1,"scene_dir":"scene_116","answer":1,"gt_params":[0.04,3.12],"distractor_params":[0.01,3.68],"distance":0.31450000000000006,"trial_type":"video-button-response","trial_index":61,"time_elapsed":423036,"internal_node_id":"0.0-61.0","correct":true},{"rt":1628.6200000004028,"stimulus":["videos/scene_117.mp4"],"response":1,"scene_dir":"scene_117","answer":0,"gt_params":[1.98,1.46],"distractor_params":[1.96,1.81],"distance":0.12290000000000006,"trial_type":"video-button-response","trial_index":62,"time_elapsed":424670,"internal_node_id":"0.0-62.0","correct":false},{"rt":3610.9349999997066,"stimulus":["videos/scene_118.mp4"],"response":0,"scene_dir":"scene_118","answer":0,"gt_params":[2.31,1.25],"distractor_params":[3.78,3.6],"distance":7.683400000000001,"trial_type":"video-button-response","trial_index":63,"time_elapsed":428286,"internal_node_id":"0.0-63.0","correct":true},{"rt":2505.820000000298,"stimulus":["videos/scene_119.mp4"],"response":0,"scene_dir":"scene_119","answer":1,"gt_params":[1.3,3.08],"distractor_params":[1,2.4],"distance":0.5524000000000002,"trial_type":"video-button-response","trial_index":64,"time_elapsed":430799,"internal_node_id":"0.0-64.0","correct":false},{"view_history":[{"page_index":0,"viewing_time":1390.29000000027}],"rt":1390.9900000007474,"trial_type":"instructions","trial_index":65,"time_elapsed":432193,"internal_node_id":"0.0-65.0"}]